File: throughputs/baseline/m2_ProtAl_Aged.dat
# Aged protected aluminum mirror coating - downward looking, V1, Date=February 27, 2012
# Simple loss model with fixed losses per filter band
# Filter % Loss
#   u      3.7
#   g      3.5
#   r      3.3
#   i      3.3
#   z      3.3
#   y      3.3
# Wavelength(nm) Reflectance(0-1)
300.00	0.87591
301.00	0.87630
302.00	0.87630
303.00	0.87630
304.00	0.87668
305.00	0.87668
306.00	0.87668
307.00	0.87668
308.00	0.87707
309.00	0.87707
310.00	0.87707
311.00	0.87747
312.00	0.87747
313.00	0.87747
314.00	0.87785
315.00	0.87785
316.00	0.87785
317.00	0.87785
318.00	0.87824
319.00	0.87824
320.00	0.87824
321.00	0.87862
322.00	0.87862
323.00	0.87862
324.00	0.87901
325.00	0.87901
326.00	0.87939
327.00	0.87939
328.00	0.87939
329.00	0.87978
330.00	0.87978
331.00	0.87978
332.00	0.88016
333.00	0.88016
334.00	0.88016
335.00	0.88055
336.00	0.88055
337.00	0.88055
338.00	0.88093
339.00	0.88093
340.00	0.88093
341.00	0.88132
342.00	0.88132
343.00	0.88132
344.00	0.88132
345.00	0.88169
346.00	0.88169
347.00	0.88169
348.00	0.88169
349.00	0.88169
350.00	0.88208
351.00	0.88208
352.00	0.88208
353.00	0.88208
354.00	0.88208
355.00	0.88246
356.00	0.88246
357.00	0.88246
358.00	0.88246
359.00	0.88285
360.00	0.88285
361.00	0.88285
362.00	0.88285
363.00	0.88323
364.00	0.88323
365.00	0.88361
366.00	0.88361
367.00	0.88361
368.00	0.88399
369.00	0.88399
370.00	0.88399
371.00	0.88437
372.00	0.88437
373.00	0.88437
374.00	0.88476
375.00	0.88476
376.00	0.88513
377.00	0.88513
378.00	0.88513
379.00	0.88551
380.00	0.88551
381.00	0.88551
382.00	0.88551
383.00	0.88551
384.00	0.88589
385.00	0.88589
386.00	0.88589
387.00	0.88589
388.00	0.88589
389.00	0.88589
390.00	0.88627
391.00	0.88627
392.00	0.88627
393.00	0.88627
394.00	0.88627
395.00	0.88665
396.00	0.88665
397.00	0.88665
398.00	0.88665
399.00	0.88665
400.00	0.88665
401.00	0.88846
402.00	0.88846
403.00	0.88884
404.00	0.88884
405.00	0.88884
406.00	0.88884
407.00	0.88884
408.00	0.88884
409.00	0.88884
410.00	0.88884
411.00	0.88884
412.00	0.88884
413.00	0.88884
414.00	0.88884
415.00	0.88884
416.00	0.88884
417.00	0.88884
418.00	0.88884
419.00	0.88884
420.00	0.88921
421.00	0.88921
422.00	0.88921
423.00	0.88921
424.00	0.88921
425.00	0.88921
426.00	0.88921
427.00	0.88921
428.00	0.88921
429.00	0.88921
430.00	0.88921
431.00	0.88921
432.00	0.88960
433.00	0.88960
434.00	0.88960
435.00	0.88960
436.00	0.88960
437.00	0.88960
438.00	0.88921
439.00	0.88921
440.00	0.88921
441.00	0.88921
442.00	0.88921
443.00	0.88884
444.00	0.88884
445.00	0.88884
446.00	0.88884
447.00	0.88884
448.00	0.88884
449.00	0.88846
450.00	0.88846
451.00	0.88846
452.00	0.88846
453.00	0.88846
454.00	0.88808
455.00	0.88808
456.00	0.88808
457.00	0.88808
458.00	0.88808
459.00	0.88770
460.00	0.88770
461.00	0.88770
462.00	0.88770
463.00	0.88770
464.00	0.88770
465.00	0.88731
466.00	0.88731
467.00	0.88731
468.00	0.88731
469.00	0.88731
470.00	0.88731
471.00	0.88731
472.00	0.88694
473.00	0.88694
474.00	0.88694
475.00	0.88694
476.00	0.88694
477.00	0.88694
478.00	0.88694
479.00	0.88694
480.00	0.88656
481.00	0.88656
482.00	0.88656
483.00	0.88656
484.00	0.88656
485.00	0.88656
486.00	0.88656
487.00	0.88656
488.00	0.88656
489.00	0.88656
490.00	0.88656
491.00	0.88617
492.00	0.88617
493.00	0.88617
494.00	0.88617
495.00	0.88579
496.00	0.88579
497.00	0.88579
498.00	0.88541
499.00	0.88541
500.00	0.88541
501.00	0.88541
502.00	0.88503
503.00	0.88503
504.00	0.88503
505.00	0.88465
506.00	0.88465
507.00	0.88465
508.00	0.88426
509.00	0.88426
510.00	0.88426
511.00	0.88426
512.00	0.88388
513.00	0.88388
514.00	0.88388
515.00	0.88349
516.00	0.88349
517.00	0.88349
518.00	0.88349
519.00	0.88311
520.00	0.88311
521.00	0.88311
522.00	0.88311
523.00	0.88273
524.00	0.88273
525.00	0.88273
526.00	0.88273
527.00	0.88273
528.00	0.88234
529.00	0.88234
530.00	0.88234
531.00	0.88234
532.00	0.88196
533.00	0.88196
534.00	0.88196
535.00	0.88196
536.00	0.88196
537.00	0.88157
538.00	0.88157
539.00	0.88157
540.00	0.88157
541.00	0.88157
542.00	0.88118
543.00	0.88118
544.00	0.88118
545.00	0.88118
546.00	0.88118
547.00	0.88118
548.00	0.88080
549.00	0.88080
550.00	0.88080
551.00	0.88080
552.00	0.88080
553.00	0.88215
554.00	0.88215
555.00	0.88215
556.00	0.88215
557.00	0.88215
558.00	0.88215
559.00	0.88176
560.00	0.88176
561.00	0.88176
562.00	0.88176
563.00	0.88176
564.00	0.88176
565.00	0.88176
566.00	0.88176
567.00	0.88176
568.00	0.88176
569.00	0.88176
570.00	0.88176
571.00	0.88176
572.00	0.88176
573.00	0.88176
574.00	0.88176
575.00	0.88138
576.00	0.88138
577.00	0.88138
578.00	0.88138
579.00	0.88138
580.00	0.88138
581.00	0.88099
582.00	0.88099
583.00	0.88060
584.00	0.88060
585.00	0.88060
586.00	0.88021
587.00	0.88021
588.00	0.88021
589.00	0.87982
590.00	0.87982
591.00	0.87982
592.00	0.87943
593.00	0.87943
594.00	0.87943
595.00	0.87905
596.00	0.87905
597.00	0.87905
598.00	0.87865
599.00	0.87865
600.00	0.87865
601.00	0.87826
602.00	0.87826
603.00	0.87826
604.00	0.87788
605.00	0.87788
606.00	0.87788
607.00	0.87788
608.00	0.87748
609.00	0.87748
610.00	0.87748
611.00	0.87709
612.00	0.87709
613.00	0.87709
614.00	0.87709
615.00	0.87670
616.00	0.87670
617.00	0.87670
618.00	0.87670
619.00	0.87631
620.00	0.87631
621.00	0.87631
622.00	0.87631
623.00	0.87591
624.00	0.87591
625.00	0.87591
626.00	0.87591
627.00	0.87591
628.00	0.87552
629.00	0.87552
630.00	0.87552
631.00	0.87552
632.00	0.87552
633.00	0.87513
634.00	0.87513
635.00	0.87513
636.00	0.87513
637.00	0.87513
638.00	0.87513
639.00	0.87473
640.00	0.87473
641.00	0.87473
642.00	0.87473
643.00	0.87434
644.00	0.87434
645.00	0.87434
646.00	0.87434
647.00	0.87434
648.00	0.87434
649.00	0.87395
650.00	0.87395
651.00	0.87356
652.00	0.87316
653.00	0.87276
654.00	0.87197
655.00	0.87197
656.00	0.87118
657.00	0.87078
658.00	0.87038
659.00	0.87038
660.00	0.87038
661.00	0.86999
662.00	0.86959
663.00	0.86920
664.00	0.86839
665.00	0.86800
666.00	0.86759
667.00	0.86719
668.00	0.86680
669.00	0.86680
670.00	0.86680
671.00	0.86639
672.00	0.86600
673.00	0.86559
674.00	0.86479
675.00	0.86438
676.00	0.86398
677.00	0.86398
678.00	0.86358
679.00	0.86317
680.00	0.86317
681.00	0.86277
682.00	0.86236
683.00	0.86196
684.00	0.86114
685.00	0.86074
686.00	0.86033
687.00	0.86033
688.00	0.85993
689.00	0.85952
690.00	0.85952
691.00	0.85911
692.00	0.85914
693.00	0.85872
694.00	0.85832
695.00	0.85791
696.00	0.85791
697.00	0.85709
698.00	0.85667
699.00	0.85667
700.00	0.85627
701.00	0.85627
702.00	0.85585
703.00	0.85545
704.00	0.85545
705.00	0.85503
706.00	0.85503
707.00	0.85462
708.00	0.85462
709.00	0.85421
710.00	0.85421
711.00	0.85379
712.00	0.85338
713.00	0.85338
714.00	0.85296
715.00	0.85296
716.00	0.85255
717.00	0.85255
718.00	0.85214
719.00	0.85214
720.00	0.85172
721.00	0.85172
722.00	0.85131
723.00	0.85131
724.00	0.85089
725.00	0.85047
726.00	0.85047
727.00	0.85005
728.00	0.85005
729.00	0.84963
730.00	0.84963
731.00	0.84922
732.00	0.84922
733.00	0.84880
734.00	0.84880
735.00	0.84838
736.00	0.84838
737.00	0.84796
738.00	0.84796
739.00	0.84754
740.00	0.84754
741.00	0.84712
742.00	0.84712
743.00	0.84670
744.00	0.84670
745.00	0.84628
746.00	0.84628
747.00	0.84586
748.00	0.84586
749.00	0.84544
750.00	0.84544
751.00	0.84502
752.00	0.84502
753.00	0.84459
754.00	0.84459
755.00	0.84417
756.00	0.84374
757.00	0.84374
758.00	0.84333
759.00	0.84333
760.00	0.84290
761.00	0.84290
762.00	0.84248
763.00	0.84205
764.00	0.84205
765.00	0.84162
766.00	0.84162
767.00	0.84120
768.00	0.84077
769.00	0.84077
770.00	0.84035
771.00	0.84035
772.00	0.83991
773.00	0.83991
774.00	0.83949
775.00	0.83906
776.00	0.83906
777.00	0.83864
778.00	0.83864
779.00	0.83820
780.00	0.83820
781.00	0.83778
782.00	0.83734
783.00	0.83734
784.00	0.83691
785.00	0.83691
786.00	0.83648
787.00	0.83605
788.00	0.83605
789.00	0.83562
790.00	0.83562
791.00	0.83519
792.00	0.83519
793.00	0.83476
794.00	0.83476
795.00	0.83432
796.00	0.83389
797.00	0.83389
798.00	0.83345
799.00	0.83345
800.00	0.83302
801.00	0.83302
802.00	0.83302
803.00	0.83302
804.00	0.83302
805.00	0.83302
806.00	0.83302
807.00	0.83302
808.00	0.83302
809.00	0.83302
810.00	0.83302
811.00	0.83302
812.00	0.83259
813.00	0.83259
814.00	0.83259
815.00	0.83259
816.00	0.83259
817.00	0.83259
818.00	0.83259
819.00	0.83259
820.00	0.83259
821.00	0.83259
822.00	0.83259
823.00	0.83259
824.00	0.83259
825.00	0.83259
826.00	0.83259
827.00	0.83259
828.00	0.83259
829.00	0.83216
830.00	0.83216
831.00	0.83216
832.00	0.83216
833.00	0.83216
834.00	0.83216
835.00	0.83216
836.00	0.83216
837.00	0.83216
838.00	0.83216
839.00	0.83216
840.00	0.83216
841.00	0.83216
842.00	0.83216
843.00	0.83216
844.00	0.83216
845.00	0.83216
846.00	0.83171
847.00	0.83171
848.00	0.83171
849.00	0.83171
850.00	0.83171
851.00	0.83216
852.00	0.83302
853.00	0.83345
854.00	0.83389
855.00	0.83432
856.00	0.83476
857.00	0.83519
858.00	0.83562
859.00	0.83605
860.00	0.83648
861.00	0.83691
862.00	0.83734
863.00	0.83778
864.00	0.83864
865.00	0.83906
866.00	0.83949
867.00	0.83991
868.00	0.84035
869.00	0.84077
870.00	0.84120
871.00	0.84162
872.00	0.84205
873.00	0.84248
874.00	0.84290
875.00	0.84333
876.00	0.84374
877.00	0.84417
878.00	0.84459
879.00	0.84502
880.00	0.84544
881.00	0.84586
882.00	0.84628
883.00	0.84670
884.00	0.84712
885.00	0.84754
886.00	0.84796
887.00	0.84838
888.00	0.84880
889.00	0.84922
890.00	0.84963
891.00	0.85005
892.00	0.85047
893.00	0.85089
894.00	0.85131
895.00	0.85172
896.00	0.85214
897.00	0.85255
898.00	0.85296
899.00	0.85338
900.00	0.85379
901.00	0.85421
902.00	0.85462
903.00	0.85503
904.00	0.85585
905.00	0.85627
906.00	0.85750
907.00	0.85832
908.00	0.85872
909.00	0.85955
910.00	0.85995
911.00	0.86036
912.00	0.86076
913.00	0.86117
914.00	0.86158
915.00	0.86198
916.00	0.86239
917.00	0.86280
918.00	0.86320
919.00	0.86401
920.00	0.86562
921.00	0.86603
922.00	0.86643
923.00	0.86683
924.00	0.86723
925.00	0.86763
926.00	0.86803
927.00	0.86923
928.00	0.86963
929.00	0.87003
930.00	0.87082
931.00	0.87122
932.00	0.87162
933.00	0.87201
934.00	0.87281
935.00	0.87281
936.00	0.87478
937.00	0.87478
938.00	0.87517
939.00	0.87596
940.00	0.87596
941.00	0.87635
942.00	0.87675
943.00	0.87714
944.00	0.87792
945.00	0.87870
946.00	0.87870
947.00	0.87909
948.00	0.87987
949.00	0.88026
950.00	0.88105
951.00	0.88105
952.00	0.88143
953.00	0.88143
954.00	0.88143
955.00	0.88143
956.00	0.88182
957.00	0.88182
958.00	0.88182
959.00	0.88221
960.00	0.88221
961.00	0.88221
962.00	0.88259
963.00	0.88259
964.00	0.88259
965.00	0.88259
966.00	0.88298
967.00	0.88298
968.00	0.88298
969.00	0.88337
970.00	0.88337
971.00	0.88337
972.00	0.88375
973.00	0.88375
974.00	0.88375
975.00	0.88375
976.00	0.88414
977.00	0.88414
978.00	0.88414
979.00	0.88453
980.00	0.88453
981.00	0.88453
982.00	0.88453
983.00	0.88491
984.00	0.88491
985.00	0.88491
986.00	0.88529
987.00	0.88529
988.00	0.88529
989.00	0.88529
990.00	0.88568
991.00	0.88568
992.00	0.88568
993.00	0.88606
994.00	0.88606
995.00	0.88606
996.00	0.88606
997.00	0.88645
998.00	0.88645
999.00	0.88645
1000.00	0.88683
1001.00	0.88683
1002.00	0.88683
1003.00	0.88683
1004.00	0.88722
1005.00	0.88722
1006.00	0.88722
1007.00	0.88759
1008.00	0.88759
1009.00	0.88759
1010.00	0.88759
1011.00	0.88798
1012.00	0.88798
1013.00	0.88798
1014.00	0.88798
1015.00	0.88837
1016.00	0.88837
1017.00	0.88837
1018.00	0.88837
1019.00	0.88874
1020.00	0.88874
1021.00	0.88874
1022.00	0.88912
1023.00	0.88912
1024.00	0.88912
1025.00	0.88912
1026.00	0.88951
1027.00	0.88951
1028.00	0.88951
1029.00	0.88951
1030.00	0.88988
1031.00	0.88988
1032.00	0.88988
1033.00	0.88988
1034.00	0.89027
1035.00	0.89027
1036.00	0.89027
1037.00	0.89065
1038.00	0.89065
1039.00	0.89065
1040.00	0.89065
1041.00	0.89103
1042.00	0.89103
1043.00	0.89103
1044.00	0.89103
1045.00	0.89141
1046.00	0.89141
1047.00	0.89141
1048.00	0.89141
1049.00	0.89179
1050.00	0.89179
1051.00	0.89179
1052.00	0.89179
1053.00	0.89217
1054.00	0.89217
1055.00	0.89217
1056.00	0.89217
1057.00	0.89254
1058.00	0.89254
1059.00	0.89254
1060.00	0.89254
1061.00	0.89292
1062.00	0.89292
1063.00	0.89292
1064.00	0.89292
1065.00	0.89330
1066.00	0.89330
1067.00	0.89330
1068.00	0.89330
1069.00	0.89368
1070.00	0.89368
1071.00	0.89368
1072.00	0.89368
1073.00	0.89405
1074.00	0.89405
1075.00	0.89405
1076.00	0.89405
1077.00	0.89405
1078.00	0.89443
1079.00	0.89443
1080.00	0.89443
1081.00	0.89443
1082.00	0.89481
1083.00	0.89481
1084.00	0.89481
1085.00	0.89481
1086.00	0.89518
1087.00	0.89518
1088.00	0.89518
1089.00	0.89518
1090.00	0.89556
1091.00	0.89556
1092.00	0.89556
1093.00	0.89556
1094.00	0.89556
1095.00	0.89594
1096.00	0.89594
1097.00	0.89594
1098.00	0.89594
1099.00	0.89632
1100.00	0.89632
1101.00	0.89632
1102.00	0.89632
1103.00	0.89669
1104.00	0.89669
1105.00	0.89669
1106.00	0.89669
1107.00	0.89669
1108.00	0.89706
1109.00	0.89706
1110.00	0.89706
1111.00	0.89706
1112.00	0.89744
1113.00	0.89744
1114.00	0.89744
1115.00	0.89744
1116.00	0.89782
1117.00	0.89782
1118.00	0.89782
1119.00	0.89782
1120.00	0.89782
1121.00	0.89818
1122.00	0.89818
1123.00	0.89818
1124.00	0.89818
1125.00	0.89818
1126.00	0.89856
1127.00	0.89856
1128.00	0.89856
1129.00	0.89856
1130.00	0.89894
1131.00	0.89894
1132.00	0.89894
1133.00	0.89894
1134.00	0.89894
1135.00	0.89930
1136.00	0.89930
1137.00	0.89930
1138.00	0.89930
1139.00	0.89968
1140.00	0.89968
1141.00	0.89968
1142.00	0.89968
1143.00	0.89968
1144.00	0.90005
1145.00	0.90005
1146.00	0.90005
1147.00	0.90005
1148.00	0.90005
1149.00	0.90043
1150.00	0.90043
1151.00	0.90043
1152.00	0.90043
1153.00	0.90043
1154.00	0.90079
1155.00	0.90079
1156.00	0.90079
1157.00	0.90079
1158.00	0.90117
1159.00	0.90117
1160.00	0.90117
1161.00	0.90117
1162.00	0.90117
1163.00	0.90154
1164.00	0.90154
1165.00	0.90154
1166.00	0.90154
1167.00	0.90154
1168.00	0.90191
1169.00	0.90191
1170.00	0.90191
1171.00	0.90191
1172.00	0.90191
1173.00	0.90228
1174.00	0.90228
1175.00	0.90228
1176.00	0.90228
1177.00	0.90228
1178.00	0.90265
1179.00	0.90265
1180.00	0.90265
1181.00	0.90265
1182.00	0.90265
1183.00	0.90302
1184.00	0.90302
1185.00	0.90302
1186.00	0.90302
1187.00	0.90302
1188.00	0.90339
1189.00	0.90339
1190.00	0.90339
1191.00	0.90339
1192.00	0.90339
1193.00	0.90376
1194.00	0.90376
1195.00	0.90376
1196.00	0.90376
1197.00	0.90376
1198.00	0.90376
1199.00	0.90413
1200.00	0.90413